File: TecnicasDeCaractenizacion/Data/PowDLL_XY_XRD_Sunday, December 03, 2023.csv
2Theta,cuenta
10.0231,1084
10.1019,1100
10.1807,1168
10.2595,1130
10.3383,1179
10.417,1236
10.4958,1150
10.5746,1184
10.6534,1152
10.7322,1153
10.8109,1157
10.8897,1166
10.9685,1229
11.0473,1134
11.1261,1194
11.2049,1184
11.2836,1186
11.3624,1186
11.4412,1212
11.52,1183
11.5988,1189
11.6775,1169
11.7563,1194
11.8351,1220
11.9139,1212
11.9927,1222
12.0715,1221
12.1502,1194
12.229,1208
12.3078,1171
12.3866,1236
12.4654,1186
12.5441,1188
12.6229,1237
12.7017,1228
12.7805,1264
12.8593,1196
12.9381,1269
13.0168,1194
13.0956,1239
13.1744,1231
13.2532,1324
13.332,1200
13.4107,1206
13.4895,1274
13.5683,1263
13.6471,1236
13.7259,1281
13.8047,1289
13.8834,1249
13.9622,1263
14.041,1340
14.1198,1275
14.1986,1271
14.2773,1295
14.3561,1233
14.4349,1295
14.5137,1228
14.5925,1290
14.6713,1245
14.75,1281
14.8288,1252
14.9076,1296
14.9864,1275
15.0652,1309
15.1439,1268
15.2227,1301
15.3015,1263
15.3803,1253
15.4591,1282
15.5378,1225
15.6166,1278
15.6954,1282
15.7742,1253
15.853,1297
15.9318,1255
16.0105,1254
16.0893,1296
16.1681,1250
16.2469,1278
16.3257,1219
16.4044,1248
16.4832,1322
16.562,1276
16.6408,1286
16.7196,1255
16.7984,1210
16.8771,1305
16.9559,1298
17.0347,1256
17.1135,1232
17.1923,1330
17.271,1248
17.3498,1338
17.4286,1284
17.5074,1204
17.5862,1286
17.665,1307
17.7437,1292
17.8225,1212
17.9013,1301
17.9801,1231
18.0589,1241
18.1376,1226
18.2164,1268
18.2952,1200
18.374,1226
18.4528,1191
18.5316,1258
18.6103,1233
18.6891,1246
18.7679,1243
18.8467,1209
18.9255,1220
19.0042,1299
19.083,1240
19.1618,1235
19.2406,1247
19.3194,1262
19.3982,1204
19.4769,1219
19.5557,1204
19.6345,1304
19.7133,1184
19.7921,1191
19.8708,1263
19.9496,1236
20.0284,1206
20.1072,1246
20.186,1211
20.2648,1178
20.3435,1124
20.4223,1176
20.5011,1261
20.5799,1222
20.6587,1156
20.7374,1135
20.8162,1207
20.895,1229
20.9738,1213
21.0526,1218
21.1314,1163
21.2101,1137
21.2889,1184
21.3677,1204
21.4465,1177
21.5253,1208
21.604,1247
21.6828,1176
21.7616,1180
21.8404,1230
21.9192,1174
21.998,1247
22.0767,1242
22.1555,1265
22.2343,1125
22.3131,1236
22.3919,1194
22.4706,1157
22.5494,1166
22.6282,1194
22.707,1167
22.7858,1203
22.8645,1216
22.9433,1238
23.0221,1192
23.1009,1199
23.1797,1208
23.2585,1204
23.3372,1185
23.416,1206
23.4948,1221
23.5736,1182
23.6524,1126
23.7311,1192
23.8099,1162
23.8887,1144
23.9675,1176
24.0463,1236
24.1251,1306
24.2038,1576
24.2826,1833
24.3614,1400
24.4402,1205
24.519,1155
24.5977,1084
24.6765,1119
24.7553,1140
24.8341,1171
24.9129,1172
24.9917,1224
25.0704,1171
25.1492,1126
25.228,1261
25.3068,1171
25.3856,1150
25.4643,1195
25.5431,1154
25.6219,1149
25.7007,1177
25.7795,1138
25.8583,1128
25.937,1180
26.0158,1139
26.0946,1083
26.1734,1177
26.2522,1116
26.3309,1124
26.4097,1134
26.4885,1091
26.5673,1159
26.6461,1161
26.7249,1150
26.8036,1156
26.8824,1141
26.9612,1159
27.04,1095
27.1188,1097
27.1975,1144
27.2763,1146
27.3551,1118
27.4339,1164
27.5127,1140
27.5915,1133
27.6702,1069
27.749,1131
27.8278,1125
27.9066,1217
27.9854,1251
28.0641,1422
28.1429,1432
28.2217,1214
28.3005,1150
28.3793,1090
28.4581,1073
28.5368,1121
28.6156,1101
28.6944,1109
28.7732,1042
28.852,1071
28.9307,1080
29.0095,1093
29.0883,1044
29.1671,1068
29.2459,1194
29.3246,1066
29.4034,1093
29.4822,1022
29.561,1055
29.6398,1116
29.7186,1092
29.7973,1070
29.8761,1115
29.9549,997
30.0337,1187
30.1125,1056
30.1912,1041
30.27,1079
30.3488,1135
30.4276,1224
30.5064,1365
30.5852,1216
30.6639,1114
30.7427,1196
30.8215,1425
30.9003,1420
30.9791,1236
31.0578,1229
31.1366,1139
31.2154,1153
31.2942,1056
31.373,960
31.4518,1051
31.5305,1016
31.6093,1048
31.6881,1033
31.7669,985
31.8457,1056
31.9244,1116
32.0032,1083
32.082,1115
32.1608,1089
32.2396,1096
32.3184,1185
32.3971,1390
32.4759,1941
32.5547,1830
32.6335,1430
32.7123,1085
32.791,1104
32.8698,1041
32.9486,1087
33.0274,1131
33.1062,1297
33.185,1652
33.2637,3000
33.3425,2570
33.4213,1644
33.5001,1271
33.5789,1211
33.6576,1097
33.7364,1000
33.8152,975
33.894,1029
33.9728,1057
34.0516,982
34.1303,1072
34.2091,1248
34.2879,1574
34.3667,1590
34.4455,1378
34.5242,1079
34.603,1096
34.6818,1061
34.7606,1056
34.8394,965
34.9182,1058
34.9969,1039
35.0757,962
35.1545,1048
35.2333,980
35.3121,1078
35.3908,1252
35.4696,1188
35.5484,1231
35.6272,1368
35.706,2086
35.7847,2522
35.8635,1860
35.9423,1274
36.0211,1146
36.0999,1051
36.1787,1053
36.2574,1068
36.3362,1063
36.415,1054
36.4938,1016
36.5726,1001
36.6513,1022
36.7301,991
36.8089,997
36.8877,982
36.9665,1055
37.0453,1006
37.124,1123
37.2028,1148
37.2816,1293
37.3604,1134
37.4392,1009
37.5179,1009
37.5967,1027
37.6755,1067
37.7543,1073
37.8331,1017
37.9119,1005
37.9906,1020
38.0694,1084
38.1482,1144
38.227,1027
38.3058,985
38.3845,1029
38.4633,999
38.5421,995
38.6209,1078
38.6997,1029
38.7785,1055
38.8572,982
38.936,1030
39.0148,1048
39.0936,1024
39.1724,1108
39.2511,1027
39.3299,1037
39.4087,1098
39.4875,1066
39.5663,1092
39.6451,1029
39.7238,999
39.8026,1017
39.8814,1064
39.9602,1090
40.039,1048
40.1177,1060
40.1965,1103
40.2753,1094
40.3541,1023
40.4329,1087
40.5117,1103
40.5904,1161
40.6692,1180
40.748,1123
40.8268,1156
40.9056,1259
40.9843,1563
41.0631,1339
41.1419,1248
41.2207,1065
41.2995,1017
41.3783,1002
41.457,1004
41.5358,1020
41.6146,1032
41.6934,1032
41.7722,1067
41.8509,990
41.9297,982
42.0085,1072
42.0873,949
42.1661,1014
42.2448,983
42.3236,991
42.4024,1018
42.4812,1049
42.56,982
42.6388,1032
42.7175,1085
42.7963,1061
42.8751,1011
42.9539,995
43.0327,956
43.1114,976
43.1902,1011
43.269,1001
43.3478,961
43.4266,985
43.5054,964
43.5841,1048
43.6629,999
43.7417,1018
43.8205,1051
43.8993,1084
43.978,1070
44.0568,1039
44.1356,1003
44.2144,984
44.2932,971
44.372,1005
44.4507,1016
44.5295,959
44.6083,976
44.6871,978
44.7659,992
44.8446,950
44.9234,964
45.0022,945
45.081,1027
45.1598,981
45.2386,1028
45.3173,931
45.3961,903
45.4749,990
45.5537,973
45.6325,914
45.7112,1023
45.79,977
45.8688,1011
45.9476,955
46.0264,949
46.1052,996
46.1839,1045
46.2627,998
46.3415,1074
46.4203,1080
46.4991,1022
46.5778,1093
46.6566,1142
46.7354,1094
46.8142,1041
46.893,1029
46.9718,1012
47.0505,1003
47.1293,1057
47.2081,1030
47.2869,1066
47.3657,978
47.4444,1015
47.5232,1013
47.602,965
47.6808,991
47.7596,989
47.8384,974
47.9171,966
47.9959,1000
48.0747,996
48.1535,1020
48.2323,1053
48.311,982
48.3898,989
48.4686,992
48.5474,1020
48.6262,928
48.7049,1031
48.7837,994
48.8625,1001
48.9413,1002
49.0201,991
49.0989,1007
49.1776,1046
49.2564,996
49.3352,1045
49.414,1134
49.4928,1450
49.5715,1826
49.6503,1658
49.7291,1490
49.8079,1259
49.8867,1106
49.9655,1110
50.0442,1059
50.123,991
50.2018,1071
50.2806,900
50.3594,1002
50.4381,1042
50.5169,1041
50.5957,1047
50.6745,1032
50.7533,1000
50.8321,1009
50.9108,978
50.9896,1024
51.0684,1046
51.1472,1031
51.226,1048
51.3047,1038
51.3835,1037
51.4623,970
51.5411,1026
51.6199,1032
51.6987,995
51.7774,1090
51.8562,1051
51.935,1001
52.0138,1014
52.0926,997
52.1713,1022
52.2501,992
52.3289,1059
52.4077,1012
52.4865,1025
52.5653,1027
52.644,1050
52.7228,1032
52.8016,1009
52.8804,1023
52.9592,970
53.0379,1056
53.1167,1060
53.1955,1034
53.2743,1030
53.3531,995
53.4319,1032
53.5106,1020
53.5894,1008
53.6682,1042
53.747,1022
53.8258,1069
53.9045,1093
53.9833,1060
54.0621,1257
54.1409,1713
54.2197,2007
54.2985,1564
54.3772,1406
54.456,1096
54.5348,1061
54.6136,1002
54.6924,984
54.7711,1007
54.8499,994
54.9287,981
55.0075,1034
55.0863,1056
55.1651,1041
55.2438,1068
55.3226,1257
55.4014,1128
55.4802,1190
55.559,1031
55.6377,1045
55.7165,1002
55.7953,1021
55.8741,965
55.9529,1030
56.0316,986
56.1104,1004
56.1892,959
56.268,965
56.3468,1018
56.4256,1003
56.5043,1019
56.5831,1128
56.6619,1078
56.7407,1026
56.8195,1008
56.8982,1084
56.977,1271
57.0558,1158
57.1346,1125
57.2134,1079
57.2922,1010
57.3709,1029
57.4497,1019
57.5285,1057
57.6073,1093
57.6861,1189
57.7648,1137
57.8436,1145
57.9224,1178
58.0012,1111
58.08,990
58.1588,1026
58.2375,973
58.3163,1028
58.3951,962
58.4739,973
58.5527,1000
58.6314,1027
58.7102,951
58.789,902
58.8678,931
58.9466,959
59.0254,927
59.1041,986
59.1829,910
59.2617,972
59.3405,930
59.4193,955
59.498,1020
59.5768,1020
59.6556,1004
59.7344,998
59.8132,1043
59.892,1005
59.9707,1058
60.0495,979
60.1283,938
60.2071,947
60.2859,987
60.3646,974
60.4434,941
60.5222,1004
60.601,993
60.6798,955
60.7586,1040
60.8373,939
60.9161,974
60.9949,935
61.0737,942
61.1525,976
61.2312,911
61.31,965
61.3888,1017
61.4676,966
61.5464,973
61.6252,974
61.7039,936
61.7827,968
61.8615,943
61.9403,941
62.0191,999
62.0978,945
62.1766,1015
62.2554,986
62.3342,1020
62.413,1094
62.4917,1387
62.5705,1466
62.6493,1255
62.7281,1218
62.8069,1056
62.8857,1026
62.9644,1056
63.0432,977
63.122,1060
63.2008,1082
63.2796,1257
63.3583,1115
63.4371,1137
63.5159,1112
63.5947,1019
63.6735,984
63.7523,1027
63.831,1022
63.9098,1092
63.9886,1184
64.0674,1411
64.1462,1442
64.2249,1273
64.3037,1208
64.3825,1156
64.4613,1011
64.5401,950
64.6189,1002
64.6976,942
64.7764,1044
64.8552,960
64.934,995
65.0128,981
65.0915,937
65.1703,871
65.2491,949
65.3279,974
65.4067,927
65.4855,978
65.5642,902
65.643,911
65.7218,980
65.8006,1011
65.8794,970
65.9581,1029
66.0369,1030
66.1157,898
66.1945,953
66.2733,1007
66.3521,1046
66.4308,924
66.5096,1004
66.5884,976
66.6672,978
66.746,970
66.8247,968
66.9035,953
66.9823,1007
67.0611,973
67.1399,1007
67.2187,995
67.2974,1000
67.3762,997
67.455,1012
67.5338,1052
67.6126,968
67.6913,1008
67.7701,982
67.8489,1112
67.9277,1078
68.0065,1066
68.0853,1076
68.164,1050
68.2428,992
68.3216,1062
68.4004,1009
68.4792,1030
68.5579,1020
68.6367,1034
68.7155,1029
68.7943,1019
68.8731,1057
68.9518,1021
69.0306,984
69.1094,1017
69.1882,1050
69.267,1007
69.3458,993
69.4245,1024
69.5033,1017
69.5821,1040
69.6609,1105
69.7397,981
69.8184,1059
69.8972,1082
69.976,1046
70.0548,1011
70.1336,1117
70.2124,1018
70.2911,1110
70.3699,1023
70.4487,1010
70.5275,1075
70.6063,1044
70.685,935
70.7638,975
70.8426,1024
70.9214,1079
71.0002,1077
71.079,1026
71.1577,1001
71.2365,993
71.3153,974
71.3941,1048
71.4729,995
71.5516,1006
71.6304,1036
71.7092,1015
71.788,1063
71.8668,1081
71.9456,1028
72.0243,1095
72.1031,1137
72.1819,1117
72.2607,1123
72.3395,1143
72.4182,1108
72.497,1020
72.5758,1113
72.6546,1046
72.7334,1076
72.8122,1018
72.8909,1056
72.9697,1085
73.0485,1101
73.1273,1074
73.2061,1032
73.2848,1078
73.3636,1021
73.4424,1005
73.5212,984
73.6,1044
73.6788,1019
73.7575,1031
73.8363,1025
73.9151,991
73.9939,1042
74.0727,1032
74.1514,1048
74.2302,990
74.309,1053
74.3878,1049
74.4666,978
74.5454,1044
74.6241,995
74.7029,1050
74.7817,961
74.8605,1029
74.9393,1020
75.018,1035
75.0968,1023
75.1756,1034
75.2544,1020
75.3332,1069
75.4119,1025
75.4907,1129
75.5695,1135
75.6483,1104
75.7271,1067
75.8059,1059
75.8846,1052
75.9634,1047
76.0422,1006
76.121,987
76.1998,1028
76.2785,1008
76.3573,991
76.4361,1026
76.5149,1025
76.5937,962
76.6725,1003
76.7512,992
76.83,982
76.9088,1073
76.9876,1075
77.0664,1061
77.1451,1087
77.2239,1045
77.3027,1080
77.3815,1131
77.4603,1046
77.5391,1111
77.6178,1127
77.6966,1074
77.7754,1083
77.8542,1133
77.933,1076
78.0117,1059
78.0905,1114
78.1693,1118
78.2481,1037
78.3269,1052
78.4057,1050
78.4844,1043
78.5632,1051
78.642,1045
78.7208,1111
78.7996,1002
78.8783,1002
78.9571,1101
79.0359,1105
79.1147,1073
79.1935,1011
79.2723,1063
79.351,995
79.4298,1047
79.5086,1072
79.5874,1058
79.6662,1078
79.7449,1084
79.8237,1067
79.9025,1075
79.9813,1071
80.0601,1053
80.1389,1049
80.2176,1069
80.2964,1088
80.3752,1045
80.454,1015
80.5328,1076
80.6115,1157
80.6903,1103
80.7691,1089
80.8479,1102
80.9267,1046
81.0055,1070
81.0842,1058
81.163,1054
81.2418,994
81.3206,1014
81.3994,1018
81.4781,1080
81.5569,1054
81.6357,1026
81.7145,939
81.7933,1038
81.872,1013
81.9508,1021
82.0296,1000
82.1084,1037
82.1872,1047
82.266,997
82.3447,1039
82.4235,1002
82.5023,1043
82.5811,1050
82.6599,1047
82.7386,936
82.8174,1021
82.8962,1100
82.975,1090
83.0538,1111
83.1326,1089
83.2113,1107
83.2901,1044
83.3689,1056
83.4477,999
83.5265,1001
83.6052,1012
83.684,1024
83.7628,1042
83.8416,1032
83.9204,1040
83.9992,1028
84.0779,970
84.1567,1040
84.2355,1037
84.3143,1047
84.3931,1017
84.4718,1013
84.5506,1042
84.6294,1045
84.7082,1041
84.787,1093
84.8658,1141
84.9445,1144
85.0233,1145
85.1021,1147
85.1809,1097
85.2597,1173
85.3384,1105
85.4172,1077
85.496,1065
85.5748,1093
85.6536,1066
85.7324,1078
85.8111,996
85.8899,1085
85.9687,1040
86.0475,1076
86.1263,990
86.205,1058
86.2838,1075
86.3626,1116
86.4414,1085
86.5202,1065
86.599,1061
86.6777,987
86.7565,1067
86.8353,1040
86.9141,1085
86.9929,1046
87.0716,1082
87.1504,1038
87.2292,1045
87.308,1085
87.3868,1049
87.4656,1065
87.5443,1066
87.6231,1031
87.7019,1051
87.7807,1041
87.8595,1056
87.9382,1027
88.017,1031
88.0958,1024
88.1746,1051
88.2534,1047
88.3322,1085
88.4109,1092
88.4897,1064
88.5685,1133
88.6473,1140
88.7261,1117
88.8048,1109
88.8836,1125
88.9624,1085
89.0412,1067
89.12,1056
89.1987,1034
89.2775,1054
89.3563,1083
89.4351,1053
89.5139,1100
89.5927,1109
89.6714,1116
89.7502,1067
89.829,1090
89.9078,1044
89.9866,1087